File: raw-data/Sp15_245L_sect-001_group-1_ultem.raw
"Test Type","Manual"
"Method Name:","C:\INSTRON\user\template\Sp15_245Lsect001_group-3_aluminum_bendtest.mtM"
"Name:","4FtPerMin"
"Operator ID:","Jaques"
"Company:","BSU"
"Lab name:",""
"Test date:","1/26/15"
"Temperature:",""
"Humidity:",""
"Note 1:",""
"Note 2:",""
"Note 3:",""
"Geometry:","Circular"
"Specimen",1
"Specimen name:",""
"Width:",6.350000,"mm"
"Thickness:",1.524000,"mm"
"Length:",12,"mm"
"Diameter:",5.000000,"um"
"Inner diameter:",0.500000,"mm"
"Outer diameter:",1.000000,"mm"
"Wall thickness:",0.500000,"mm"
"Area:",19.635,"um*um"
"Linear density:",1.000000,"den"
"Sled weight:",9.806650,"N"
"Loading span:",0.000000,"mm"
"Support span:",1.000000,"mm"
"Span ratio:","2"
"Fixture type:","3-point"
"Comment:",""
"Included"
"Time sec","Extension mm","Load N","Stress MPa","Cycle Count ","Total Cycle Count ","Repetitions Count ","Strain [Exten.] %","Tenacity gf/tex"
0,0,-5.028902,-256119.9,0,0,0,0,-4615.247
0.026,0,-5.00319,-254810.4,0,0,0,0,-4591.651
0.038,0,-4.981574,-253709.5,0,0,0,0,-4571.813
0.072,0,-5.003972,-254850.2,0,0,0,0,-4592.369
0.086,0,-5.031087,-256231.2,0,0,0,0,-4617.253
0.094,0,-5.054778,-257437.8,0,0,0,0,-4638.996
0.118,0,-5.052906,-257342.4,0,0,0,0,-4637.277
0.126,0,-5.030207,-256186.4,0,0,0,0,-4616.446
0.136,0,-5.007415,-255025.5,0,0,0,0,-4595.528
0.154,-0.000236111,-4.999277,-254611.1,0,0,0,-0.001967592,-4588.059
0.166,-0.000236111,-5.025896,-255966.8,0,0,0,-0.001967592,-4612.489
0.174,-0.000236111,-5.053645,-257380,0,0,0,-0.001967592,-4637.956
0.182,-0.000236111,-5.081031,-258774.8,0,0,0,-0.001967592,-4663.088
0.19,-0.000236111,-5.10622,-260057.7,0,0,0,-0.001967592,-4686.206
0.208,-0.000236111,-5.104998,-259995.4,0,0,0,-0.001967592,-4685.084
0.216,-0.000236111,-5.073973,-258415.3,0,0,0,-0.001967592,-4656.611
0.224,-0.000236111,-5.04117,-256744.7,0,0,0,-0.001967592,-4626.507
0.246,-0.000236111,-5.042706,-256822.9,0,0,0,-0.001967592,-4627.917
0.27,-0.000236111,-5.063939,-257904.3,0,0,0,-0.001967592,-4647.402
0.28,-0.000472222,-5.077219,-258580.6,0,0,0,-0.003935183,-4659.59
0.288,-0.000472222,-5.103446,-259916.4,0,0,0,-0.003935183,-4683.66
0.294,-0.0007083331,-5.126425,-261086.7,0,0,0,-0.005902776,-4704.749
0.302,-0.0007083331,-5.153239,-262452.3,0,0,0,-0.005902776,-4729.357
0.31,-0.000944444,-5.175521,-263587.1,0,0,0,-0.007870367,-4749.807
0.318,-0.000944444,-5.197389,-264700.8,0,0,0,-0.007870367,-4769.875
0.326,-0.001180555,-5.223232,-266017,0,0,0,-0.009837959,-4793.593
0.334,-0.001416666,-5.248577,-267307.8,0,0,0,-0.01180555,-4816.854
0.342,-0.001416666,-5.275286,-268668.1,0,0,0,-0.01180555,-4841.365
0.35,-0.001652777,-5.30529,-270196.2,0,0,0,-0.01377314,-4868.901
0.356,-0.001888888,-5.326936,-271298.7,0,0,0,-0.01574073,-4888.767
0.364,-0.001888888,-5.356906,-272825,0,0,0,-0.01574073,-4916.271
0.37,-0.002124999,-5.38054,-274028.7,0,0,0,-0.01770833,-4937.961
0.376,-0.00236111,-5.400891,-275065.2,0,0,0,-0.01967592,-4956.639
0.386,-0.002597221,-5.426779,-276383.6,0,0,0,-0.02164351,-4980.397
0.394,-0.002833332,-5.445567,-277340.4,0,0,0,-0.0236111,-4997.64
0.402,-0.002833332,-5.467415,-278453.2,0,0,0,-0.0236111,-5017.691
0.408,-0.003069443,-5.482883,-279240.9,0,0,0,-0.02557869,-5031.886
0.414,-0.003305554,-5.498394,-280030.9,0,0,0,-0.02754628,-5046.122
0.424,-0.003305554,-5.522285,-281247.7,0,0,0,-0.02754628,-5068.047
0.432,-0.003541665,-5.538453,-282071.1,0,0,0,-0.02951388,-5082.885
0.44,-0.003777776,-5.553667,-282845.9,0,0,0,-0.03148147,-5096.847
0.448,-0.004013887,-5.569918,-283673.6,0,0,0,-0.03344906,-5111.762
0.458,-0.004249998,-5.592822,-284840.1,0,0,0,-0.03541665,-5132.782
0.466,-0.004249998,-5.614812,-285960,0,0,0,-0.03541665,-5152.963
0.476,-0.004486109,-5.634225,-286948.7,0,0,0,-0.03738425,-5170.779
0.49,-0.00472222,-5.646358,-287566.7,0,0,0,-0.03935184,-5181.915
0.512,-0.004958331,-5.66729,-288632.7,0,0,0,-0.04131943,-5201.125
0.534,-0.005194443,-5.691231,-289852,0,0,0,-0.04328702,-5223.096
0.548,-0.005194443,-5.715035,-291064.4,0,0,0,-0.04328702,-5244.943
0.56,-0.005430553,-5.728255,-291737.7,0,0,0,-0.04525461,-5257.076
0.604,-0.005666665,-5.747092,-292697,0,0,0,-0.0472222,-5274.363
0.618,-0.005902775,-5.764515,-293584.3,0,0,0,-0.04918979,-5290.352
0.634,-0.005902775,-5.789554,-294859.6,0,0,0,-0.04918979,-5313.332
0.644,-0.006138886,-5.803146,-295551.8,0,0,0,-0.05115739,-5325.806
0.66,-0.006374997,-5.817878,-296302.1,0,0,0,-0.05312498,-5339.326
0.684,-0.006611108,-5.833364,-297090.8,0,0,0,-0.05509257,-5353.539
0.71,-0.00684722,-5.840425,-297450.4,0,0,0,-0.05706016,-5360.019
0.736,-0.00708333,-5.862558,-298577.7,0,0,0,-0.05902775,-5380.331
0.748,-0.00708333,-5.891527,-300053,0,0,0,-0.05902775,-5406.917
0.76,-0.007319441,-5.910104,-300999.1,0,0,0,-0.06099534,-5423.966
0.782,-0.007555552,-5.930095,-302017.3,0,0,0,-0.06296293,-5442.312
0.804,-0.007791664,-5.941287,-302587.3,0,0,0,-0.06493053,-5452.583
0.828,-0.008027775,-5.960507,-303566.1,0,0,0,-0.06689812,-5470.223
0.848,-0.008027775,-5.984132,-304769.3,0,0,0,-0.06689812,-5491.904
0.856,-0.008263885,-5.99796,-305473.6,0,0,0,-0.06886571,-5504.595
0.868,-0.008263885,-6.022876,-306742.5,0,0,0,-0.06886571,-5527.461
0.878,-0.008499997,-6.041258,-307678.8,0,0,0,-0.0708333,-5544.332
0.894,-0.008736108,-6.05514,-308385.8,0,0,0,-0.0728009,-5557.072
0.918,-0.008972219,-6.074902,-309392.2,0,0,0,-0.07476849,-5575.208
0.952,-0.00920833,-6.090907,-310207.4,0,0,0,-0.07673608,-5589.897
0.964,-0.00944444,-6.110237,-311191.8,0,0,0,-0.07870367,-5607.637
0.988,-0.009680551,-6.126293,-312009.5,0,0,0,-0.08067126,-5622.372
1.012,-0.009916663,-6.141378,-312777.8,0,0,0,-0.08263886,-5636.216
1.036,-0.01015277,-6.163377,-313898.3,0,0,0,-0.08460645,-5656.406
1.054,-0.01015277,-6.186875,-315094.9,0,0,0,-0.08460645,-5677.971
1.07,-0.01038889,-6.212389,-316394.4,0,0,0,-0.08657404,-5701.387
1.088,-0.010625,-6.227952,-317187,0,0,0,-0.08854163,-5715.669
1.11,-0.01086111,-6.245201,-318065.5,0,0,0,-0.09050922,-5731.499
1.134,-0.01109722,-6.262008,-318921.4,0,0,0,-0.09247681,-5746.924
1.146,-0.01109722,-6.28289,-319984.9,0,0,0,-0.09247681,-5766.088
1.156,-0.01133333,-6.296972,-320702.2,0,0,0,-0.09444441,-5779.012
1.174,-0.01133333,-6.317672,-321756.4,0,0,0,-0.09444441,-5798.01
1.196,-0.01156944,-6.331031,-322436.8,0,0,0,-0.096412,-5810.269
1.214,-0.01180555,-6.343127,-323052.8,0,0,0,-0.09837959,-5821.37
1.234,-0.01204166,-6.364846,-324159,0,0,0,-0.1003472,-5841.303
1.252,-0.01227777,-6.383108,-325089,0,0,0,-0.1023148,-5858.063
1.268,-0.01251388,-6.407994,-326356.4,0,0,0,-0.1042824,-5880.902
1.29,-0.01274999,-6.429174,-327435.1,0,0,0,-0.10625,-5900.339
1.314,-0.01298611,-6.449427,-328466.6,0,0,0,-0.1082175,-5918.927
1.338,-0.01322222,-6.468571,-329441.6,0,0,0,-0.1101851,-5936.496
1.356,-0.01322222,-6.493528,-330712.7,0,0,0,-0.1101851,-5959.4
1.372,-0.01345833,-6.514589,-331785.3,0,0,0,-0.1121527,-5978.729
1.408,-0.01369444,-6.53527,-332838.6,0,0,0,-0.1141203,-5997.709
1.428,-0.01393055,-6.545907,-333380.3,0,0,0,-0.1160879,-6007.471
1.444,-0.01416666,-6.559875,-334091.7,0,0,0,-0.1180555,-6020.29
1.454,-0.01440277,-6.575723,-334898.8,0,0,0,-0.1200231,-6034.834
1.472,-0.01440277,-6.597534,-336009.7,0,0,0,-0.1200231,-6054.852
1.486,-0.01463888,-6.61469,-336883.4,0,0,0,-0.1219907,-6070.596
1.498,-0.01463888,-6.636275,-337982.7,0,0,0,-0.1219907,-6090.405
1.522,-0.0151111,-6.649058,-338633.8,0,0,0,-0.1259259,-6102.137
1.542,-0.0151111,-6.670753,-339738.7,0,0,0,-0.1259259,-6122.047
1.552,-0.01534721,-6.690866,-340763,0,0,0,-0.1278935,-6140.506
1.566,-0.01534721,-6.712372,-341858.3,0,0,0,-0.1278935,-6160.243
1.582,-0.01558333,-6.723926,-342446.8,0,0,0,-0.1298611,-6170.847
1.612,-0.01605555,-6.732092,-342862.7,0,0,0,-0.1337962,-6178.341
1.638,-0.01629166,-6.756858,-344124,0,0,0,-0.1357638,-6201.07
1.65,-0.01652777,-6.780959,-345351.4,0,0,0,-0.1377314,-6223.188
1.668,-0.01652777,-6.802719,-346459.6,0,0,0,-0.1377314,-6243.158
1.684,-0.01676388,-6.816149,-347143.6,0,0,0,-0.139699,-6255.484
1.698,-0.01699999,-6.833388,-348021.6,0,0,0,-0.1416666,-6271.305
1.712,-0.0172361,-6.855144,-349129.6,0,0,0,-0.1436342,-6291.271
1.728,-0.0172361,-6.876739,-350229.4,0,0,0,-0.1436342,-6311.09
1.74,-0.01747222,-6.890526,-350931.6,0,0,0,-0.1456018,-6323.743
1.76,-0.01770833,-6.912875,-352069.8,0,0,0,-0.1475694,-6344.253
1.784,-0.01794444,-6.930391,-352961.9,0,0,0,-0.149537,-6360.329
1.818,-0.01818055,-6.945041,-353708.1,0,0,0,-0.1515046,-6373.774
1.828,-0.01841666,-6.958901,-354413.9,0,0,0,-0.1534722,-6386.494
1.844,-0.01841666,-6.980073,-355492.2,0,0,0,-0.1534722,-6405.924
1.862,-0.01865277,-7.002541,-356636.5,0,0,0,-0.1554397,-6426.544
1.904,-0.01888888,-7.020809,-357566.9,0,0,0,-0.1574073,-6443.31
1.928,-0.01912499,-7.032854,-358180.3,0,0,0,-0.1593749,-6454.364
1.942,-0.0193611,-7.051539,-359131.9,0,0,0,-0.1613425,-6471.512
1.958,-0.0193611,-7.074299,-360291.1,0,0,0,-0.1613425,-6492.4
1.976,-0.01959721,-7.087676,-360972.4,0,0,0,-0.1633101,-6504.677
1.994,-0.01983333,-7.109882,-362103.3,0,0,0,-0.1652777,-6525.056
2.012,-0.02006944,-7.125878,-362918,0,0,0,-0.1672453,-6539.736
2.036,-0.02030555,-7.148751,-364082.9,0,0,0,-0.1692129,-6560.727
2.048,-0.02030555,-7.1717,-365251.7,0,0,0,-0.1692129,-6581.789
2.062,-0.02054166,-7.185617,-365960.5,0,0,0,-0.1711805,-6594.561
2.106,-0.02101388,-7.202487,-366819.6,0,0,0,-0.1751157,-6610.043
2.126,-0.02124999,-7.225535,-367993.5,0,0,0,-0.1770833,-6631.196
2.142,-0.02124999,-7.248885,-369182.7,0,0,0,-0.1770833,-6652.625
2.154,-0.0214861,-7.266321,-370070.7,0,0,0,-0.1790509,-6668.626
2.166,-0.02172221,-7.285745,-371059.9,0,0,0,-0.1810184,-6686.453
2.19,-0.02195833,-7.305623,-372072.3,0,0,0,-0.1829861,-6704.696
2.212,-0.02195833,-7.329114,-373268.7,0,0,0,-0.1829861,-6726.254
2.22,-0.02219444,-7.344625,-374058.7,0,0,0,-0.1849536,-6740.49
2.24,-0.02243054,-7.364816,-375087,0,0,0,-0.1869212,-6759.02
2.266,-0.02243054,-7.386135,-376172.8,0,0,0,-0.1869212,-6778.586
2.278,-0.02266666,-7.400104,-376884.2,0,0,0,-0.1888888,-6791.406
2.316,-0.02290277,-7.407796,-377276,0,0,0,-0.1908564,-6798.465
2.326,-0.02313888,-7.421544,-377976.1,0,0,0,-0.192824,-6811.082
2.354,-0.02313888,-7.445228,-379182.4,0,0,0,-0.192824,-6832.818
2.364,-0.02337499,-7.461559,-380014.1,0,0,0,-0.1947916,-6847.805
2.382,-0.0236111,-7.466737,-380277.8,0,0,0,-0.1967592,-6852.557
2.42,-0.02384721,-7.48253,-381082.1,0,0,0,-0.1987268,-6867.052
2.432,-0.02384721,-7.503536,-382152,0,0,0,-0.1987268,-6886.33
2.442,-0.02408332,-7.524035,-383196,0,0,0,-0.2006944,-6905.143
2.458,-0.02408332,-7.544463,-384236.3,0,0,0,-0.2006944,-6923.89
2.478,-0.02431944,-7.557533,-384902,0,0,0,-0.202662,-6935.885
2.492,-0.02455555,-7.578703,-385980.2,0,0,0,-0.2046295,-6955.314
2.506,-0.02479165,-7.599796,-387054.4,0,0,0,-0.2065971,-6974.672
2.528,-0.02502777,-7.613757,-387765.5,0,0,0,-0.2085647,-6987.484
2.548,-0.02502777,-7.638564,-389028.9,0,0,0,-0.2085647,-7010.251
2.574,-0.02549999,-7.653479,-389788.5,0,0,0,-0.2124999,-7023.938
2.598,-0.0257361,-7.67445,-390856.5,0,0,0,-0.2144675,-7043.185
2.628,-0.02597221,-7.697621,-392036.7,0,0,0,-0.2164351,-7064.45
2.642,-0.02620832,-7.720317,-393192.5,0,0,0,-0.2184027,-7085.279
2.656,-0.02620832,-7.74412,-394404.8,0,0,0,-0.2184027,-7107.125
2.666,-0.02644443,-7.760503,-395239.2,0,0,0,-0.2203703,-7122.16
2.684,-0.02644443,-7.781557,-396311.4,0,0,0,-0.2203703,-7141.481
2.714,-0.02691665,-7.791495,-396817.6,0,0,0,-0.2243055,-7150.603
2.744,-0.02715277,-7.813239,-397925,0,0,0,-0.2262731,-7170.558
2.758,-0.02715277,-7.834388,-399002.1,0,0,0,-0.2262731,-7189.967
2.774,-0.02738888,-7.84776,-399683.1,0,0,0,-0.2282407,-7202.239
2.792,-0.02762499,-7.869731,-400802.1,0,0,0,-0.2302082,-7222.403
2.808,-0.0278611,-7.892009,-401936.7,0,0,0,-0.2321758,-7242.849
2.83,-0.0278611,-7.914733,-403094.1,0,0,0,-0.2321758,-7263.704
2.84,-0.02809721,-7.931345,-403940.1,0,0,0,-0.2341434,-7278.949
2.854,-0.02809721,-7.954463,-405117.5,0,0,0,-0.2341434,-7300.166
2.878,-0.02856943,-7.965225,-405665.6,0,0,0,-0.2380786,-7310.042
2.926,-0.02904166,-7.986135,-406730.5,0,0,0,-0.2420138,-7329.232
2.942,-0.02904166,-8.007717,-407829.7,0,0,0,-0.2420138,-7349.039
2.96,-0.02927776,-8.030326,-408981.2,0,0,0,-0.2439814,-7369.789
2.974,-0.02951388,-8.045682,-409763.2,0,0,0,-0.245949,-7383.881
2.99,-0.02951388,-8.069068,-410954.3,0,0,0,-0.245949,-7405.344
3.014,-0.02974999,-8.086028,-411818,0,0,0,-0.2479166,-7420.908
3.03,-0.0299861,-8.104138,-412740.4,0,0,0,-0.2498841,-7437.529
3.046,-0.03022221,-8.118461,-413469.8,0,0,0,-0.2518517,-7450.673
3.068,-0.03022221,-8.140742,-414604.6,0,0,0,-0.2518517,-7471.122
3.08,-0.03045832,-8.153928,-415276.2,0,0,0,-0.2538193,-7483.224
3.102,-0.03069443,-8.178344,-416519.7,0,0,0,-0.2557869,-7505.631
3.116,-0.03093054,-8.191728,-417201.3,0,0,0,-0.2577545,-7517.914
3.14,-0.03116666,-8.204822,-417868.2,0,0,0,-0.2597221,-7529.932
3.158,-0.03116666,-8.22801,-419049.1,0,0,0,-0.2597221,-7551.211
3.186,-0.03163887,-8.240199,-419669.9,0,0,0,-0.2636573,-7562.398
3.2,-0.03163887,-8.268545,-421113.6,0,0,0,-0.2636573,-7588.413
3.212,-0.03187499,-8.289225,-422166.8,0,0,0,-0.2656249,-7607.392
3.244,-0.0321111,-8.305828,-423012.3,0,0,0,-0.2675925,-7622.629
3.256,-0.0321111,-8.330825,-424285.4,0,0,0,-0.2675925,-7645.569
3.282,-0.03258332,-8.336648,-424582,0,0,0,-0.2715277,-7650.914
3.302,-0.03258332,-8.359022,-425721.5,0,0,0,-0.2715277,-7671.447
3.316,-0.03281943,-8.376531,-426613.3,0,0,0,-0.2734953,-7687.516
3.338,-0.03305554,-8.39758,-427685.3,0,0,0,-0.2754628,-7706.834
3.35,-0.03329165,-8.416745,-428661.3,0,0,0,-0.2774304,-7724.422
3.374,-0.03352777,-8.436192,-429651.7,0,0,0,-0.2793981,-7742.27
3.398,-0.03376387,-8.450922,-430401.9,0,0,0,-0.2813656,-7755.788
3.414,-0.03376387,-8.474409,-431598.1,0,0,0,-0.2813656,-7777.343
3.434,-0.03399999,-8.489894,-432386.8,0,0,0,-0.2833332,-7791.554
3.456,-0.0342361,-8.510282,-433425.1,0,0,0,-0.2853008,-7810.266
3.468,-0.03447221,-8.523984,-434122.9,0,0,0,-0.2872684,-7822.84
3.48,-0.03447221,-8.547205,-435305.6,0,0,0,-0.2872684,-7844.151
3.494,-0.03470832,-8.564485,-436185.7,0,0,0,-0.289236,-7860.01
3.524,-0.03494443,-8.587284,-437346.8,0,0,0,-0.2912036,-7880.934
3.54,-0.03518054,-8.598757,-437931.1,0,0,0,-0.2931712,-7891.463
3.564,-0.03541665,-8.598918,-437939.3,0,0,0,-0.2951388,-7891.61
3.576,-0.03541665,-8.623145,-439173.2,0,0,0,-0.2951388,-7913.844
3.588,-0.03565276,-8.63618,-439837.1,0,0,0,-0.2971064,-7925.808
3.614,-0.03588887,-8.654571,-440773.7,0,0,0,-0.299074,-7942.686
3.626,-0.03588887,-8.676777,-441904.6,0,0,0,-0.299074,-7963.065
3.638,-0.03612498,-8.692651,-442713.1,0,0,0,-0.3010415,-7977.633
3.658,-0.03612498,-8.714362,-443818.8,0,0,0,-0.3010415,-7997.559
3.67,-0.0363611,-8.733044,-444770.3,0,0,0,-0.3030091,-8014.704
3.686,-0.03659721,-8.751268,-445698.4,0,0,0,-0.3049767,-8031.429
3.722,-0.03683332,-8.772617,-446785.7,0,0,0,-0.3069443,-8051.022
3.738,-0.03706943,-8.785954,-447465,0,0,0,-0.3089119,-8063.262
3.75,-0.03730554,-8.806424,-448507.5,0,0,0,-0.3108795,-8082.048
3.762,-0.03730554,-8.827065,-449558.8,0,0,0,-0.3108795,-8100.991
3.786,-0.03754165,-8.847225,-450585.5,0,0,0,-0.3128471,-8119.493
3.808,-0.03777776,-8.869311,-451710.3,0,0,0,-0.3148147,-8139.762
3.838,-0.03801387,-8.884668,-452492.4,0,0,0,-0.3167823,-8153.856
3.852,-0.03824999,-8.907444,-453652.4,0,0,0,-0.3187499,-8174.758
3.87,-0.0384861,-8.923987,-454494.9,0,0,0,-0.3207175,-8189.941
3.892,-0.03872221,-8.937817,-455199.3,0,0,0,-0.322685,-8202.633
3.916,-0.03895832,-8.959536,-456305.4,0,0,0,-0.3246527,-8222.565
3.93,-0.03895832,-8.981361,-457417,0,0,0,-0.3246527,-8242.596
3.94,-0.03919443,-9.000684,-458401.1,0,0,0,-0.3266203,-8260.329
3.964,-0.03943054,-9.022149,-459494.3,0,0,0,-0.3285878,-8280.028
3.982,-0.03943054,-9.043876,-460600.8,0,0,0,-0.3285878,-8299.969
4.012,-0.03990276,-9.053666,-461099.4,0,0,0,-0.332523,-8308.953
4.026,-0.03990276,-9.076253,-462249.8,0,0,0,-0.332523,-8329.682
4.034,-0.04013887,-9.088981,-462898,0,0,0,-0.3344906,-8341.363
4.06,-0.04037498,-9.108353,-463884.6,0,0,0,-0.3364582,-8359.142
4.082,-0.04061109,-9.119675,-464461.3,0,0,0,-0.3384258,-8369.533
4.104,-0.04061109,-9.143589,-465679.2,0,0,0,-0.3384258,-8391.479
4.112,-0.0408472,-9.160272,-466528.8,0,0,0,-0.3403934,-8406.79
4.124,-0.0408472,-9.182413,-467656.5,0,0,0,-0.3403934,-8427.11
4.138,-0.04108332,-9.200452,-468575.2,0,0,0,-0.342361,-8443.665
4.164,-0.04131943,-9.220222,-469582.1,0,0,0,-0.3443286,-8461.809
4.198,-0.04179165,-9.237532,-470463.6,0,0,0,-0.3482637,-8477.694
4.212,-0.04179165,-9.258675,-471540.5,0,0,0,-0.3482637,-8497.1
4.238,-0.04202776,-9.275611,-472403,0,0,0,-0.3502313,-8512.642
4.246,-0.04226387,-9.29247,-473261.6,0,0,0,-0.3521989,-8528.114
4.27,-0.04249998,-9.292044,-473239.9,0,0,0,-0.3541665,-8527.723
4.294,-0.04273609,-9.312075,-474260.1,0,0,0,-0.3561341,-8546.106
4.304,-0.04273609,-9.336114,-475484.4,0,0,0,-0.3561341,-8568.168
4.316,-0.04297221,-9.349403,-476161.2,0,0,0,-0.3581017,-8580.364
4.338,-0.04297221,-9.369999,-477210.2,0,0,0,-0.3581017,-8599.266
4.348,-0.04320832,-9.385663,-478007.9,0,0,0,-0.3600693,-8613.642
4.362,-0.04344442,-9.396057,-478537.3,0,0,0,-0.3620369,-8623.18
4.388,-0.04368054,-9.417222,-479615.2,0,0,0,-0.3640045,-8642.604
4.4,-0.04368054,-9.44445,-481001.9,0,0,0,-0.3640045,-8667.593
4.412,-0.04391665,-9.457999,-481691.9,0,0,0,-0.3659721,-8680.027
4.43,-0.04391665,-9.481373,-482882.4,0,0,0,-0.3659721,-8701.479
4.444,-0.04415276,-9.500783,-483870.9,0,0,0,-0.3679397,-8719.292
4.476,-0.04438887,-9.514219,-484555.2,0,0,0,-0.3699073,-8731.623
4.504,-0.04462499,-9.53594,-485661.5,0,0,0,-0.3718749,-8751.558
4.53,-0.04486109,-9.547628,-486256.7,0,0,0,-0.3738424,-8762.284
4.546,-0.0450972,-9.56183,-486980,0,0,0,-0.37581,-8775.318
4.558,-0.04533332,-9.581943,-488004.4,0,0,0,-0.3777776,-8793.776
4.576,-0.04533332,-9.603262,-489090.1,0,0,0,-0.3777776,-8813.342
4.594,-0.04556942,-9.615638,-489720.4,0,0,0,-0.3797452,-8824.7
4.606,-0.04580554,-9.631933,-490550.3,0,0,0,-0.3817128,-8839.654
4.62,-0.04580554,-9.653836,-491665.8,0,0,0,-0.3817128,-8859.756
4.64,-0.04604165,-9.671093,-492544.7,0,0,0,-0.3836804,-8875.594
4.658,-0.04627776,-9.694954,-493760,0,0,0,-0.385648,-8897.492
4.674,-0.04651387,-9.714059,-494732.9,0,0,0,-0.3876156,-8915.024
4.696,-0.04674998,-9.725503,-495315.8,0,0,0,-0.3895831,-8925.527
4.718,-0.04674998,-9.74752,-496437.1,0,0,0,-0.3895831,-8945.733
4.728,-0.04698609,-9.760845,-497115.8,0,0,0,-0.3915508,-8957.962
4.742,-0.0472222,-9.774865,-497829.8,0,0,0,-0.3935184,-8970.829
4.766,-0.0472222,-9.79721,-498967.8,0,0,0,-0.3935184,-8991.336
4.778,-0.04745831,-9.81066,-499652.8,0,0,0,-0.3954859,-9003.681
4.81,-0.04769443,-9.826489,-500459,0,0,0,-0.3974535,-9018.207
4.826,-0.04793053,-9.845702,-501437.5,0,0,0,-0.3994211,-9035.84
4.84,-0.04816664,-9.859711,-502151,0,0,0,-0.4013887,-9048.696
4.862,-0.04816664,-9.880753,-503222.6,0,0,0,-0.4013887,-9068.008
4.874,-0.04840276,-9.893443,-503868.9,0,0,0,-0.4033563,-9079.653
4.886,-0.04863887,-9.907831,-504601.7,0,0,0,-0.4053239,-9092.858
4.906,-0.04863887,-9.930014,-505731.4,0,0,0,-0.4053239,-9113.217
4.92,-0.04887498,-9.949406,-506719.1,0,0,0,-0.4072915,-9131.014
4.934,-0.04911109,-9.96763,-507647.2,0,0,0,-0.4092591,-9147.738
4.958,-0.0493472,-9.986258,-508596,0,0,0,-0.4112267,-9164.834
4.982,-0.04958331,-9.997324,-509159.5,0,0,0,-0.4131942,-9174.99
5.016,-0.04981942,-10.01706,-510164.8,0,0,0,-0.4151618,-9193.104
5.03,-0.05005554,-10.03441,-511048.1,0,0,0,-0.4171295,-9209.021
5.046,-0.05005554,-10.05843,-512271.5,0,0,0,-0.4171295,-9231.067
5.06,-0.05029164,-10.0776,-513248,0,0,0,-0.419097,-9248.664
5.076,-0.05052776,-10.09542,-514155.6,0,0,0,-0.4210646,-9265.02
5.1,-0.05076387,-10.11692,-515250.5,0,0,0,-0.4230323,-9284.748
5.118,-0.05076387,-10.14024,-516438.3,0,0,0,-0.4230323,-9306.152
5.136,-0.05099998,-10.15887,-517387.2,0,0,0,-0.4249998,-9323.252
5.158,-0.05123609,-10.17943,-518434.1,0,0,0,-0.4269674,-9342.116
5.168,-0.0514722,-10.19396,-519174.1,0,0,0,-0.428935,-9355.45
5.192,-0.05170831,-10.20788,-519883.1,0,0,0,-0.4309026,-9368.227
5.222,-0.05194442,-10.22649,-520830.9,0,0,0,-0.4328702,-9385.307
5.236,-0.05194442,-10.24906,-521980.6,0,0,0,-0.4328702,-9406.023
5.246,-0.05218054,-10.26265,-522672.4,0,0,0,-0.4348378,-9418.49
5.26,-0.05241664,-10.2768,-523393,0,0,0,-0.4368054,-9431.476
5.28,-0.05265275,-10.29749,-524446.9,0,0,0,-0.4387729,-9450.466
5.302,-0.05288887,-10.31609,-525394.1,0,0,0,-0.4407406,-9467.535
5.324,-0.05312498,-10.33214,-526211.6,0,0,0,-0.4427081,-9482.267
5.34,-0.05312498,-10.35567,-527409.9,0,0,0,-0.4427081,-9503.86
5.358,-0.05336109,-10.37647,-528469.1,0,0,0,-0.4446757,-9522.946
5.382,-0.0535972,-10.39572,-529449.5,0,0,0,-0.4466433,-9540.612
5.392,-0.05383331,-10.41066,-530210.8,0,0,0,-0.4486109,-9554.331
5.416,-0.05406942,-10.43047,-531219.4,0,0,0,-0.4505785,-9572.506
5.44,-0.05430553,-10.44922,-532174.3,0,0,0,-0.4525461,-9589.713
5.458,-0.05430553,-10.47117,-533292.4,0,0,0,-0.4525461,-9609.86
5.49,-0.05477776,-10.48413,-533952.1,0,0,0,-0.4564813,-9621.749
5.514,-0.05477776,-10.50689,-535111.6,0,0,0,-0.4564813,-9642.644
5.522,-0.05501387,-10.52062,-535810.8,0,0,0,-0.4584489,-9655.242
5.54,-0.05524998,-10.5422,-536909.9,0,0,0,-0.4604165,-9675.048
5.558,-0.05524998,-10.56566,-538104.6,0,0,0,-0.4604165,-9696.577
5.59,-0.0557222,-10.58052,-538861.3,0,0,0,-0.4643517,-9710.212
5.606,-0.0557222,-10.60095,-539901.9,0,0,0,-0.4643517,-9728.963
5.64,-0.05619442,-10.62168,-540957.9,0,0,0,-0.4682868,-9747.993
5.664,-0.05643053,-10.64029,-541905.4,0,0,0,-0.4702544,-9765.065
5.686,-0.05666664,-10.65787,-542800.6,0,0,0,-0.472222,-9781.198
5.702,-0.05666664,-10.67955,-543904.9,0,0,0,-0.472222,-9801.097
5.718,-0.05690275,-10.70047,-544970.3,0,0,0,-0.4741896,-9820.296
5.732,-0.05713886,-10.71547,-545734.3,0,0,0,-0.4761572,-9834.062
5.754,-0.05713886,-10.73716,-546839,0,0,0,-0.4761572,-9853.969
5.774,-0.05737497,-10.75096,-547542.1,0,0,0,-0.4781248,-9866.64
5.794,-0.05761109,-10.77116,-548570.8,0,0,0,-0.4800924,-9885.175
5.826,-0.0578472,-10.7918,-549621.8,0,0,0,-0.48206,-9904.115
5.836,-0.05808331,-10.80433,-550260.2,0,0,0,-0.4840276,-9915.618
5.852,-0.05831942,-10.82215,-551167.8,0,0,0,-0.4859952,-9931.974
5.872,-0.05831942,-10.84403,-552281.8,0,0,0,-0.4859952,-9952.048
5.884,-0.05855553,-10.85711,-552948.1,0,0,0,-0.4879628,-9964.055
5.898,-0.05879164,-10.87758,-553990.6,0,0,0,-0.4899304,-9982.841
5.92,-0.05902775,-10.89528,-554892.2,0,0,0,-0.4918979,-9999.087
5.942,-0.05926386,-10.91301,-555794.8,0,0,0,-0.4938655,-10015.35
5.962,-0.05949998,-10.9326,-556793,0,0,0,-0.4958331,-10033.34
5.982,-0.05973608,-10.95027,-557692.8,0,0,0,-0.4978007,-10049.55
5.998,-0.05997219,-10.96679,-558534.1,0,0,0,-0.4997683,-10064.71
6.014,-0.06020831,-10.98588,-559506.3,0,0,0,-0.5017359,-10082.23
6.03,-0.06044442,-11.00124,-560288.4,0,0,0,-0.5037035,-10096.33
6.048,-0.06068053,-11.0158,-561029.9,0,0,0,-0.5056711,-10109.69
6.062,-0.06068053,-11.03828,-562174.9,0,0,0,-0.5056711,-10130.32
6.076,-0.06091664,-11.06092,-563328.1,0,0,0,-0.5076387,-10151.1
6.092,-0.06091664,-11.08285,-564445.1,0,0,0,-0.5076387,-10171.23
6.102,-0.06115275,-11.09819,-565225.9,0,0,0,-0.5096063,-10185.3
6.118,-0.06138886,-11.11623,-566145,0,0,0,-0.5115739,-10201.86
6.15,-0.06162497,-11.12784,-566736.4,0,0,0,-0.5135415,-10212.52
6.178,-0.06162497,-11.14967,-567848.1,0,0,0,-0.5135415,-10232.55
6.186,-0.06186108,-11.16321,-568537.4,0,0,0,-0.515509,-10244.97
6.204,-0.06186108,-11.18358,-569575.1,0,0,0,-0.515509,-10263.67
6.222,-0.0620972,-11.1952,-570166.8,0,0,0,-0.5174766,-10274.33
6.258,-0.06256942,-11.21403,-571126.1,0,0,0,-0.5214118,-10291.62
6.28,-0.06256942,-11.2379,-572341.8,0,0,0,-0.5214118,-10313.53
6.3,-0.06280552,-11.25153,-573035.9,0,0,0,-0.5233794,-10326.03
6.316,-0.06304164,-11.26778,-573863.5,0,0,0,-0.525347,-10340.95
6.33,-0.06327775,-11.28142,-574557.9,0,0,0,-0.5273145,-10353.46
6.354,-0.06327775,-11.30384,-575700,0,0,0,-0.5273145,-10374.04
6.364,-0.06351386,-11.31739,-576390.1,0,0,0,-0.5292822,-10386.48
6.38,-0.06374998,-11.34072,-577578.1,0,0,0,-0.5312498,-10407.88
6.404,-0.06398609,-11.35935,-578527.2,0,0,0,-0.5332174,-10424.99
6.426,-0.0642222,-11.38326,-579744.5,0,0,0,-0.535185,-10446.92
6.45,-0.0644583,-11.39988,-580590.9,0,0,0,-0.5371525,-10462.17
6.472,-0.0644583,-11.41993,-581612.1,0,0,0,-0.5371525,-10480.58
6.482,-0.06469441,-11.43438,-582348.3,0,0,0,-0.5391201,-10493.84
6.496,-0.06493053,-11.44525,-582901.6,0,0,0,-0.5410877,-10503.81
6.53,-0.06516664,-11.46588,-583952.4,0,0,0,-0.5430554,-10522.75
6.548,-0.06540275,-11.48942,-585151.6,0,0,0,-0.5450229,-10544.36
6.562,-0.06563886,-11.50806,-586100.6,0,0,0,-0.5469905,-10561.46
6.58,-0.06563886,-11.53054,-587245.7,0,0,0,-0.5469905,-10582.09
6.596,-0.06587497,-11.54628,-588047.1,0,0,0,-0.5489581,-10596.53
6.614,-0.06611108,-11.56419,-588959.4,0,0,0,-0.5509257,-10612.97
6.628,-0.06634719,-11.57828,-589676.9,0,0,0,-0.5528933,-10625.9
6.65,-0.06658331,-11.59778,-590670,0,0,0,-0.5548609,-10643.8
6.672,-0.06681942,-11.61504,-591549.2,0,0,0,-0.5568284,-10659.64
6.692,-0.06681942,-11.63717,-592676.3,0,0,0,-0.5568284,-10679.95
6.706,-0.06705553,-11.65052,-593356.3,0,0,0,-0.5587961,-10692.2
6.738,-0.06729164,-11.66621,-594155.3,0,0,0,-0.5607637,-10706.6
6.75,-0.06752774,-11.68282,-595001.4,0,0,0,-0.5627312,-10721.85
6.768,-0.06776386,-11.7028,-596018.8,0,0,0,-0.5646988,-10740.18
6.792,-0.06799997,-11.71514,-596647,0,0,0,-0.5666664,-10751.5
6.808,-0.06799997,-11.73958,-597891.7,0,0,0,-0.5666664,-10773.93
6.818,-0.06823608,-11.75591,-598723.4,0,0,0,-0.568634,-10788.92
6.852,-0.0684722,-11.77433,-599661.6,0,0,0,-0.5706016,-10805.83
6.864,-0.0684722,-11.79699,-600815.7,0,0,0,-0.5706016,-10826.62
6.874,-0.0687083,-11.81122,-601540.6,0,0,0,-0.5725692,-10839.69
6.89,-0.06894442,-11.82838,-602414.3,0,0,0,-0.5745368,-10855.43
6.934,-0.06941664,-11.84535,-603278.7,0,0,0,-0.578472,-10871
6.958,-0.06965275,-11.86788,-604426,0,0,0,-0.5804396,-10891.68
6.974,-0.06965275,-11.88999,-605552.2,0,0,0,-0.5804396,-10911.97
6.99,-0.06988886,-11.9109,-606617.3,0,0,0,-0.5824072,-10931.17
7.008,-0.07012497,-11.92778,-607476.9,0,0,0,-0.5843747,-10946.66
7.032,-0.07036108,-11.94455,-608330.9,0,0,0,-0.5863424,-10962.04
7.054,-0.07036108,-11.96748,-609498.6,0,0,0,-0.5863424,-10983.09
7.066,-0.0705972,-11.98102,-610188.4,0,0,0,-0.58831,-10995.52
7.082,-0.0708333,-12.00472,-611395.6,0,0,0,-0.5902776,-11017.27
7.108,-0.07106941,-12.0259,-612473.8,0,0,0,-0.5922451,-11036.7
7.134,-0.07130553,-12.03815,-613098,0,0,0,-0.5942127,-11047.95
7.154,-0.07130553,-12.05903,-614161.6,0,0,0,-0.5942127,-11067.11
7.176,-0.07154164,-12.07392,-614919.5,0,0,0,-0.5961803,-11080.77
7.2,-0.07177775,-12.09117,-615798.1,0,0,0,-0.5981479,-11096.6
7.222,-0.07201386,-12.11239,-616878.9,0,0,0,-0.6001155,-11116.08
7.238,-0.07224997,-12.13048,-617800.4,0,0,0,-0.6020831,-11132.68
7.26,-0.07224997,-12.15436,-619016.4,0,0,0,-0.6020831,-11154.6
7.274,-0.07248608,-12.17539,-620087.6,0,0,0,-0.6040506,-11173.9
7.29,-0.07272219,-12.18929,-620795.7,0,0,0,-0.6060182,-11186.66
7.316,-0.0729583,-12.20699,-621696.9,0,0,0,-0.6079859,-11202.9
7.338,-0.0729583,-12.22807,-622770.3,0,0,0,-0.6079859,-11222.24
7.348,-0.07319441,-12.24379,-623571.2,0,0,0,-0.6099535,-11236.67
7.364,-0.07319441,-12.26541,-624672.2,0,0,0,-0.6099535,-11256.51
7.38,-0.07343053,-12.27824,-625325.5,0,0,0,-0.6119211,-11268.29
7.416,-0.07390274,-12.28731,-625787.6,0,0,0,-0.6158562,-11276.61
7.43,-0.07390274,-12.31219,-627054.4,0,0,0,-0.6158562,-11299.44
7.44,-0.07413886,-12.32923,-627922.8,0,0,0,-0.6178238,-11315.09
7.458,-0.07413886,-12.35157,-629060.2,0,0,0,-0.6178238,-11335.58
7.472,-0.07437497,-12.36553,-629771.6,0,0,0,-0.6197914,-11348.4
7.502,-0.07461108,-12.38779,-630905,0,0,0,-0.621759,-11368.83
7.516,-0.07484719,-12.40177,-631616.9,0,0,0,-0.6237266,-11381.66
7.53,-0.0750833,-12.42472,-632785.9,0,0,0,-0.6256942,-11402.72
7.548,-0.0750833,-12.44565,-633851.8,0,0,0,-0.6256942,-11421.93
7.562,-0.07531942,-12.46243,-634706.3,0,0,0,-0.6276618,-11437.33
7.574,-0.07555552,-12.47995,-635598.4,0,0,0,-0.6296294,-11453.4
7.598,-0.07579163,-12.49315,-636270.8,0,0,0,-0.6315969,-11465.52
7.63,-0.07602775,-12.5136,-637312.6,0,0,0,-0.6335645,-11484.29
7.646,-0.07626386,-12.53102,-638199.6,0,0,0,-0.6355321,-11500.28
7.66,-0.07626386,-12.55453,-639397.1,0,0,0,-0.6355321,-11521.85
7.67,-0.07649997,-12.57226,-640299.9,0,0,0,-0.6374997,-11538.12
7.694,-0.07673609,-12.58498,-640947.8,0,0,0,-0.6394674,-11549.8
7.718,-0.07697219,-12.60811,-642125.6,0,0,0,-0.6414349,-11571.02
7.742,-0.0772083,-12.62934,-643207.1,0,0,0,-0.6434025,-11590.51
7.76,-0.0772083,-12.65324,-644424.1,0,0,0,-0.6434025,-11612.44
7.774,-0.07744441,-12.67466,-645515.2,0,0,0,-0.6453701,-11632.1
7.792,-0.07768052,-12.69888,-646748.8,0,0,0,-0.6473377,-11654.33
7.816,-0.07791664,-12.70813,-647219.9,0,0,0,-0.6493053,-11662.82
7.84,-0.07791664,-12.72912,-648288.6,0,0,0,-0.6493053,-11682.08
7.85,-0.07815275,-12.74355,-649023.6,0,0,0,-0.651273,-11695.32
7.862,-0.07838886,-12.75767,-649742.8,0,0,0,-0.6532405,-11708.28
7.882,-0.07838886,-12.77854,-650805.7,0,0,0,-0.6532405,-11727.44
7.896,-0.07862496,-12.795,-651644.3,0,0,0,-0.655208,-11742.55
7.924,-0.07886108,-12.81144,-652481.1,0,0,0,-0.6571757,-11757.63
7.942,-0.07909719,-12.8352,-653691.3,0,0,0,-0.6591433,-11779.43
7.956,-0.0793333,-12.85621,-654761.3,0,0,0,-0.6611109,-11798.71
7.978,-0.0793333,-12.87785,-655863.6,0,0,0,-0.6611109,-11818.58
7.988,-0.07956942,-12.89055,-656510.2,0,0,0,-0.6630785,-11830.23
8.004,-0.07980552,-12.90482,-657236.9,0,0,0,-0.665046,-11843.32
8.022,-0.07980552,-12.9282,-658427.7,0,0,0,-0.665046,-11864.78
8.036,-0.08004164,-12.94465,-659265.8,0,0,0,-0.6670136,-11879.88
8.05,-0.08027774,-12.96049,-660072.4,0,0,0,-0.6689812,-11894.42
8.074,-0.08051386,-12.98118,-661126,0,0,0,-0.6709488,-11913.41
8.094,-0.08051386,-13.00468,-662322.8,0,0,0,-0.6709488,-11934.97
8.106,-0.08074997,-13.01787,-662994.6,0,0,0,-0.6729164,-11947.08
8.14,-0.08098608,-13.03375,-663803.3,0,0,0,-0.674884,-11961.65
8.152,-0.08122219,-13.04848,-664553.7,0,0,0,-0.6768516,-11975.17
8.166,-0.08122219,-13.07137,-665719.7,0,0,0,-0.6768516,-11996.18
8.174,-0.0814583,-13.08528,-666428,0,0,0,-0.6788192,-12008.95
8.192,-0.08169441,-13.09885,-667119,0,0,0,-0.6807867,-12021.4
8.214,-0.08169441,-13.12195,-668295.5,0,0,0,-0.6807867,-12042.6
8.222,-0.08193052,-13.13714,-669069.2,0,0,0,-0.6827543,-12056.54
8.238,-0.08216663,-13.1537,-669912.7,0,0,0,-0.6847219,-12071.74
8.264,-0.08240275,-13.17026,-670755.9,0,0,0,-0.6866896,-12086.93
8.288,-0.08263885,-13.19111,-671817.5,0,0,0,-0.6886571,-12106.07
8.304,-0.08263885,-13.21418,-672992.8,0,0,0,-0.6886571,-12127.24
8.324,-0.08287497,-13.23454,-674029.4,0,0,0,-0.6906247,-12145.92
8.352,-0.08311108,-13.25371,-675005.8,0,0,0,-0.6925923,-12163.52
8.372,-0.08334719,-13.27154,-675914.2,0,0,0,-0.6945599,-12179.89
8.392,-0.0835833,-13.29512,-677114.9,0,0,0,-0.6965275,-12201.52
8.404,-0.0835833,-13.32187,-678477.1,0,0,0,-0.6965275,-12226.07
8.414,-0.08381941,-13.33687,-679241.4,0,0,0,-0.6984951,-12239.84
8.446,-0.08405552,-13.35105,-679963.6,0,0,0,-0.7004626,-12252.86
8.46,-0.08429163,-13.37132,-680995.8,0,0,0,-0.7024302,-12271.46
8.474,-0.08452775,-13.38855,-681873,0,0,0,-0.7043979,-12287.26
8.496,-0.08476386,-13.4114,-683037.3,0,0,0,-0.7063655,-12308.24
8.51,-0.08476386,-13.43323,-684149,0,0,0,-0.7063655,-12328.28
8.526,-0.08499997,-13.45609,-685313.1,0,0,0,-0.708333,-12349.25
8.542,-0.08523608,-13.46918,-685979.8,0,0,0,-0.7103007,-12361.27
8.564,-0.08547218,-13.48372,-686720.4,0,0,0,-0.7122682,-12374.62
8.584,-0.08547218,-13.5062,-687865.4,0,0,0,-0.7122682,-12395.25
8.598,-0.0857083,-13.52073,-688605.2,0,0,0,-0.7142358,-12408.58
8.612,-0.08594441,-13.53734,-689451.2,0,0,0,-0.7162035,-12423.82
8.628,-0.08594441,-13.56038,-690624.3,0,0,0,-0.7162035,-12444.96
8.658,-0.08641663,-13.57314,-691274.2,0,0,0,-0.7201386,-12456.67
8.672,-0.08641663,-13.59703,-692491.2,0,0,0,-0.7201386,-12478.6
8.682,-0.08665274,-13.61133,-693219.6,0,0,0,-0.7221062,-12491.73
8.706,-0.08688885,-13.6233,-693828.8,0,0,0,-0.7240738,-12502.71
8.722,-0.08688885,-13.64541,-694955.3,0,0,0,-0.7240738,-12523
8.754,-0.08736108,-13.66618,-696012.6,0,0,0,-0.728009,-12542.06
8.772,-0.08736108,-13.69166,-697310.4,0,0,0,-0.728009,-12565.45
8.786,-0.08759719,-13.71133,-698312.3,0,0,0,-0.7299766,-12583.5
8.802,-0.0878333,-13.73118,-699323.3,0,0,0,-0.7319442,-12601.72
8.82,-0.0878333,-13.75351,-700460.3,0,0,0,-0.7319442,-12622.21
8.834,-0.08806941,-13.76776,-701186.5,0,0,0,-0.7339118,-12635.29
8.866,-0.08830551,-13.78576,-702103.1,0,0,0,-0.7358793,-12651.81
8.878,-0.08854163,-13.79823,-702738.2,0,0,0,-0.7378469,-12663.25
8.888,-0.08877774,-13.81245,-703462.5,0,0,0,-0.7398145,-12676.3
8.91,-0.08901386,-13.83166,-704440.9,0,0,0,-0.7417821,-12693.94
8.926,-0.08901386,-13.85722,-705742.2,0,0,0,-0.7417821,-12717.38
8.954,-0.08948608,-13.87263,-706527,0,0,0,-0.7457173,-12731.53
8.97,-0.08948608,-13.89907,-707873.8,0,0,0,-0.7457173,-12755.79
8.98,-0.08972218,-13.92189,-709035.9,0,0,0,-0.7476848,-12776.74
8.994,-0.08972218,-13.94734,-710331.9,0,0,0,-0.7476848,-12800.09
9.004,-0.08995829,-13.95977,-710965.3,0,0,0,-0.7496524,-12811.5
9.018,-0.09019441,-13.97854,-711921.4,0,0,0,-0.7516201,-12828.73
9.03,-0.09019441,-14.00039,-713033.8,0,0,0,-0.7516201,-12848.78
9.058,-0.09066664,-14.01166,-713608.1,0,0,0,-0.7555553,-12859.13
9.076,-0.09066664,-14.03369,-714729.9,0,0,0,-0.7555553,-12879.34
9.086,-0.09090274,-14.051,-715611.8,0,0,0,-0.7575228,-12895.23
9.1,-0.09113885,-14.07384,-716774.7,0,0,0,-0.7594904,-12916.19
9.112,-0.09113885,-14.09723,-717966,0,0,0,-0.7594904,-12937.66
9.122,-0.09137496,-14.11219,-718728.1,0,0,0,-0.761458,-12951.39
9.156,-0.09161107,-14.13318,-719796.9,0,0,0,-0.7634256,-12970.65
9.18,-0.09184719,-14.15033,-720670.4,0,0,0,-0.7653932,-12986.39
9.192,-0.09208329,-14.16813,-721577.1,0,0,0,-0.7673607,-13002.73
9.204,-0.09208329,-14.19166,-722775.1,0,0,0,-0.7673607,-13024.32
9.218,-0.09231941,-14.20285,-723345,0,0,0,-0.7693284,-13034.58
9.25,-0.09255552,-14.2216,-724300.4,0,0,0,-0.771296,-13051.8
9.268,-0.09255552,-14.24463,-725472.9,0,0,0,-0.771296,-13072.93
9.288,-0.09279162,-14.25634,-726069.3,0,0,0,-0.7732635,-13083.68
9.302,-0.09302774,-14.27685,-727113.9,0,0,0,-0.7752311,-13102.5
9.328,-0.09326385,-14.29726,-728153.5,0,0,0,-0.7771988,-13121.23
9.342,-0.09349996,-14.31756,-729187.6,0,0,0,-0.7791663,-13139.87
9.366,-0.09373607,-14.3339,-730019.6,0,0,0,-0.7811339,-13154.86
9.386,-0.09373607,-14.35752,-731222.4,0,0,0,-0.7811339,-13176.54
9.398,-0.09397218,-14.37109,-731913.6,0,0,0,-0.7831016,-13188.99
9.412,-0.09420829,-14.3871,-732729.1,0,0,0,-0.7850691,-13203.68
9.428,-0.09420829,-14.4086,-733823.9,0,0,0,-0.7850691,-13223.41
9.448,-0.0944444,-14.42555,-734687.1,0,0,0,-0.7870367,-13238.97
9.456,-0.09468052,-14.44023,-735434.8,0,0,0,-0.7890043,-13252.44
9.47,-0.09468052,-14.46235,-736561.4,0,0,0,-0.7890043,-13272.74
9.492,-0.09491662,-14.47909,-737414.2,0,0,0,-0.7909719,-13288.11
9.512,-0.09515274,-14.49897,-738426.3,0,0,0,-0.7929395,-13306.35
9.53,-0.09538885,-14.52005,-739500.2,0,0,0,-0.7949071,-13325.7
9.544,-0.09562496,-14.53433,-740227.2,0,0,0,-0.7968747,-13338.8
9.57,-0.09586107,-14.55153,-741103.1,0,0,0,-0.7988423,-13354.58
9.586,-0.09586107,-14.57542,-742320.1,0,0,0,-0.7988423,-13376.51
9.608,-0.09609718,-14.59462,-743298.1,0,0,0,-0.8008099,-13394.14
9.62,-0.09633329,-14.60897,-744028.9,0,0,0,-0.8027774,-13407.31
9.656,-0.0965694,-14.62681,-744937.6,0,0,0,-0.804745,-13423.68
9.676,-0.09680552,-14.64965,-746100.8,0,0,0,-0.8067126,-13444.64
9.692,-0.09704163,-14.6721,-747244.1,0,0,0,-0.8086802,-13465.24
9.71,-0.09704163,-14.69353,-748335.4,0,0,0,-0.8086802,-13484.91
9.74,-0.09751385,-14.70597,-748968.9,0,0,0,-0.8126154,-13496.33
9.76,-0.09751385,-14.73082,-750234.4,0,0,0,-0.8126154,-13519.13
9.77,-0.09774995,-14.75296,-751362.3,0,0,0,-0.8145829,-13539.45
9.806,-0.09798607,-14.77036,-752248.1,0,0,0,-0.8165506,-13555.42
9.82,-0.09822218,-14.78838,-753166.2,0,0,0,-0.8185182,-13571.96
9.834,-0.09845829,-14.80675,-754101.5,0,0,0,-0.8204858,-13588.81
9.848,-0.09845829,-14.82972,-755271.5,0,0,0,-0.8204858,-13609.9
9.858,-0.09869441,-14.84655,-756128.8,0,0,0,-0.8224534,-13625.34
9.882,-0.09893051,-14.86743,-757192.3,0,0,0,-0.8244209,-13644.51
9.9,-0.09893051,-14.8888,-758280.3,0,0,0,-0.8244209,-13664.11
9.926,-0.09916662,-14.90375,-759041.7,0,0,0,-0.8263885,-13677.83
9.94,-0.09940273,-14.92203,-759972.9,0,0,0,-0.8283561,-13694.61
9.956,-0.09963885,-14.94362,-761072.1,0,0,0,-0.8303237,-13714.42
9.976,-0.09963885,-14.965,-762161.4,0,0,0,-0.8303237,-13734.05
9.988,-0.09987496,-14.97797,-762821.9,0,0,0,-0.8322913,-13745.95
10.002,-0.1001111,-14.98103,-762977.6,0,0,0,-0.834259,-13748.76